!   height[km]     pressure[bar]    temperature[K]
     -3686.           100.0            3159.852
     -3422.           71.63            3127.201
     -3159.           51.30            3113.418
     -2896.           36.75            3097.443
     -2633.           26.32            3091.321
     -2369.           18.85            3084.289
     -2104.           13.50            3081.487
     -1838.           9.672            3078.316
     -1571.           6.928            3077.027
     -1303.           4.962            3075.572
     -1034.           3.554            3074.955
     -763.9           2.546            3074.314
     -492.2           1.823            3074.190
     -219.3           1.306            3074.438
      54.83          0.9354            3075.883
      329.4          0.6700            3079.190
      605.7          0.4799            3085.431
      884.1          0.3437            3095.700
      1165.          0.2462            3110.138
      1449.          0.1764            3132.451
      1737.          0.1263            3175.034
      2033.          9.0474E-02        3273.114
      2343.          6.4803E-02        3429.209
      2667.          4.6416E-02        3556.818
      3003.          3.3246E-02        3638.701
      3347.          2.3813E-02        3709.672
      3700.          1.7056E-02        3764.461
      4060.          1.2217E-02        3803.710
      4425.          8.7504E-03        3834.342
      4794.          6.2676E-03        3860.269
      5169.          4.4893E-03        3880.281
      5547.          3.2155E-03        3892.352
      5929.          2.3031E-03        3896.596
      6313.          1.6496E-03        3894.516
      6699.          1.1816E-03        3889.302
      7087.          8.4632E-04        3884.472
      7477.          6.0619E-04        3882.992
      7870.          4.3419E-04        3886.792
      8266.          3.1100E-04        3897.567
      8667.          2.2275E-04        3917.598
      9072.          1.5955E-04        3948.408
      9484.          1.1428E-04        3989.151
      9903.          8.1855E-05        4029.923
     1.0329E+04      5.8629E-05        4063.009
     1.0761E+04      4.1994E-05        4088.502
     1.1198E+04      3.0079E-05        4108.754
     1.1640E+04      2.1544E-05        4125.607
     1.2087E+04      1.5431E-05        4140.521
     1.2539E+04      1.1053E-05        4154.532
     1.2995E+04      7.9168E-06        4168.422
     1.3456E+04      5.6705E-06        4182.572
     1.3923E+04      4.0616E-06        4197.239
     1.4394E+04      2.9092E-06        4212.348
     1.4871E+04      2.0837E-06        4227.866
     1.5353E+04      1.4925E-06        4243.618
     1.5840E+04      1.0690E-06        4259.670
     1.6333E+04      7.6570E-07        4276.081
     1.6831E+04      5.4844E-07        4293.180
     1.7335E+04      3.9283E-07        4311.227
     1.7846E+04      2.8137E-07        4330.613
     1.8363E+04      2.0153E-07        4351.344
     1.8886E+04      1.4435E-07        4373.268
     1.9416E+04      1.0339E-07        4395.680
     1.9953E+04      7.4057E-08        4417.830
     2.0497E+04      5.3044E-08        4438.740
     2.1048E+04      3.7994E-08        4457.724
     2.1606E+04      2.7213E-08        4474.183
     2.2170E+04      1.9492E-08        4487.913
     2.2741E+04      1.3961E-08        4498.914
     2.3317E+04      1.0000E-08        4507.601
